build	computer.platform	date	time	subject	group	values.N	blockcode	blocknum	values.TotalBlocks	trialcode	trialnum	values.starttrialcounter	stimulusitem1	values.v_position	values.v_currenttarget	stimulusitem2	values.a_stimnumber	values.a_currenttarget	values.1response	values.2response	correct	values.1latency	values.2latency	values.latency	values.trial_Hitv	values.trial_Missv	values.trial_CRv	values.trial_FAv	values.trial_Hita	values.trial_Missa	values.trial_CRa	values.trial_FAa	values.v_Hits	values.v_FalseA	values.v_Misses	values.v_CorrReject	values.a_Hits	values.a_FalseA	values.a_Misses	values.a_CorrReject	values.v_TotalHits	values.v_TotalFA	values.a_TotalHits	values.a_TotalFA	values.DV
5.0.14.0	mac	113020	13:27:19	1	1	1	adapt_d_ntask	7	1	start	1	1	FixationPoint.gif	2	0	square.gif	5	0	0	0	1	0	0	3000	0	0	0	0	0	0	0	0	0	0	0	0	0	0	0	0	0	0	0	0	0
5.0.14.0	mac	113020	13:27:19	1	1	1	adapt_d_ntask	7	1	nontarget	2	1	FixationPoint.gif	5	2	square.gif	8	5	30	0	0	2717	0	2717	0	0	0	1	0	0	1	0	0	1	0	0	0	0	0	1	0	0	0	0	0
5.0.14.0	mac	113020	13:27:19	1	1	1	adapt_d_ntask	7	1	av_target	3	1	FixationPoint.gif	5	5	square.gif	8	8	30	0	0	2883	0	2883	1	0	0	0	0	1	0	0	1	1	0	0	0	0	1	1	0	0	0	0	0
5.0.14.0	mac	113020	13:27:19	1	1	1	adapt_d_ntask	7	1	v_target	4	1	FixationPoint.gif	5	5	square.gif	7	8	30	0	1	2985	0	2985	1	0	0	0	0	0	1	0	2	1	0	0	0	0	1	2	0	0	0	0	0
5.0.14.0	mac	113020	13:27:19	1	1	1	adapt_d_ntask	7	1	a_target	5	1	FixationPoint.gif	4	5	square.gif	7	7	0	0	0	0	0	3000	0	0	1	0	0	1	0	0	2	1	0	1	0	0	2	2	0	0	0	0	0
5.0.14.0	mac	113020	13:27:19	1	1	1	adapt_d_ntask	7	1	nontarget	6	1	FixationPoint.gif	5	4	square.gif	6	7	0	0	1	0	0	3000	0	0	1	0	0	0	1	0	2	1	0	2	0	0	2	3	0	0	0	0	0
5.0.14.0	mac	113020	13:27:19	1	1	1	adapt_d_ntask	7	1	nontarget	7	1	FixationPoint.gif	6	5	square.gif	2	6	0	0	1	0	0	3000	0	0	1	0	0	0	1	0	2	1	0	3	0	0	2	4	0	0	0	0	0
5.0.14.0	mac	113020	13:27:19	1	1	1	adapt_d_ntask	7	1	nontarget	8	1	FixationPoint.gif	1	6	square.gif	3	2	38	0	0	2916	0	2916	0	0	1	0	0	0	0	1	2	1	0	4	0	1	2	4	0	0	0	0	0
5.0.14.0	mac	113020	13:27:19	1	1	1	adapt_d_ntask	7	1	nontarget	9	1	FixationPoint.gif	5	1	square.gif	1	3	30	0	0	2732	0	2732	0	0	0	1	0	0	1	0	2	2	0	4	0	1	2	5	0	0	0	0	0
5.0.14.0	mac	113020	13:27:19	1	1	1	adapt_d_ntask	7	1	nontarget	10	1	FixationPoint.gif	8	5	square.gif	6	1	0	0	1	0	0	3000	0	0	1	0	0	0	1	0	2	2	0	5	0	1	2	6	0	0	0	0	0
5.0.14.0	mac	113020	13:27:19	1	1	1	adapt_d_ntask	7	1	nontarget	11	1	FixationPoint.gif	3	8	square.gif	2	6	0	0	1	0	0	3000	0	0	1	0	0	0	1	0	2	2	0	6	0	1	2	7	0	0	0	0	0
5.0.14.0	mac	113020	13:27:19	1	1	1	adapt_d_ntask	7	1	nontarget	12	1	FixationPoint.gif	8	3	square.gif	7	2	0	0	1	0	0	3000	0	0	1	0	0	0	1	0	2	2	0	7	0	1	2	8	0	0	0	0	0
5.0.14.0	mac	113020	13:27:19	1	1	1	adapt_d_ntask	7	1	a_target	13	1	FixationPoint.gif	7	8	square.gif	7	7	30	0	0	2904	0	2904	0	0	0	1	0	1	0	0	2	3	0	7	0	1	3	8	0	0	0	0	0
5.0.14.0	mac	113020	13:27:19	1	1	1	adapt_d_ntask	7	1	v_target	14	1	FixationPoint.gif	7	7	square.gif	3	7	0	0	0	0	0	3000	0	1	0	0	0	0	1	0	2	3	1	7	0	1	3	9	0	0	0	0	0
5.0.14.0	mac	113020	13:27:19	1	1	1	adapt_d_ntask	7	1	nontarget	15	1	FixationPoint.gif	2	7	square.gif	5	3	0	0	1	0	0	3000	0	0	1	0	0	0	1	0	2	3	1	8	0	1	3	10	0	0	0	0	0
5.0.14.0	mac	113020	13:27:19	1	1	1	adapt_d_ntask	7	1	v_target	16	1	FixationPoint.gif	2	2	square.gif	8	5	0	0	0	0	0	3000	0	1	0	0	0	0	1	0	2	3	2	8	0	1	3	11	0	0	0	0	0
5.0.14.0	mac	113020	13:27:19	1	1	1	adapt_d_ntask	7	1	nontarget	17	1	FixationPoint.gif	3	2	square.gif	4	8	0	0	1	0	0	3000	0	0	1	0	0	0	1	0	2	3	2	9	0	1	3	12	0	0	0	0	0
5.0.14.0	mac	113020	13:27:19	1	1	1	adapt_d_ntask	7	1	av_target	18	1	FixationPoint.gif	3	3	square.gif	4	4	0	0	0	0	0	3000	0	1	0	0	0	1	0	0	2	3	3	9	0	1	4	12	0	0	0	0	0
5.0.14.0	mac	113020	13:27:19	1	1	1	adapt_d_ntask	7	1	v_target	19	1	FixationPoint.gif	3	3	square.gif	5	4	38	0	0	2943	0	2943	0	1	0	0	0	0	0	1	2	3	4	9	0	2	4	12	0	0	0	0	0
5.0.14.0	mac	113020	13:27:19	1	1	1	adapt_d_ntask	7	1	a_target	20	1	FixationPoint.gif	2	3	square.gif	5	5	30	0	0	2680	0	2680	0	0	0	1	0	1	0	0	2	4	4	9	0	2	5	12	0	0	0	0	0
5.0.14.0	mac	113020	13:27:19	1	1	1	adapt_d_ntask	7	1	a_target	21	1	FixationPoint.gif	8	2	square.gif	5	5	0	0	0	0	0	3000	0	0	1	0	0	1	0	0	2	4	4	10	0	2	6	12	0	0	0	0	0
5.0.14.0	mac	113020	13:27:19	1	1	1	adapt_d_ntask	8	2	start	1	1	FixationPoint.gif	3	0	square.gif	8	0	0	0	1	0	0	1190	0	0	0	0	0	0	0	0	0	0	0	0	0	0	0	0	2	4	0	2	-2
